File: Tutorial_XAFS/ok_Gold_Foil.20K/Au_bulk_20k.dat
# XDI/1.0 Athena/0.9.21
# Element.edge:                  L3
# Element.symbol:                Au
# Column.1:                      energy eV
# Column.2:                      xmu
# Column.3:                      bkg
# Column.4:                      pre_edge
# Column.5:                      post_edge
# Column.6:                      der
# Column.7:                      sec
# Column.8:                      i0
# Athena.e0:                     11920.1
# Athena.eshift:                 0
# Athena.rbkg:                   1.0
# Athena.importance:             1
# Athena.standard:               None
# Athena.bkg_kweight:            2
# Athena.edge_step:              0.9178349
# Athena.fixed_step:             no
# Athena.pre_edge_range:         -150.000 -30.000
# Athena.pre_edge_line:          4.952595 - 0.00032483 * E
# Athena.normalization_range:    150.000 1676.466
# Athena.post_edge_polynomial:   13.1101 - 0.00131986 * E + 3.25231e-08 * E^2 + 0 * E^3
# Athena.spline_range_energy:    0.000 1776.434
# Athena.clamps:                 0 24
# Athena.spline_range_k:         0.000 21.593
# Athena.kweight:                2
# Athena.window:                 hanning
# Athena.phase_correction:       no
# Athena.k_range:                3.000 19.593
# Athena.dk:                     1
# Athena.r_range:                1 3
# Athena.dr:                     0.0
# Athena.window:                 hanning
# Athena.plot_multiplier:        1
# Athena.y_offset:               0
# ///
#------------------------
#   e         xmu        bkg        pre_edge        post_edge        der        sec        i0
  11699.999        1.16398        1.16398        1.15209        2.11984      -0.000466395  -3.41349e-07    1
  11720.010        1.15458        1.15458        1.14559        2.10867      -0.000480674   3.68012e-07    1
  11740.091        1.1453        1.1453        1.13906        2.09749      -0.000461842  -1.81485e-07    1
  11760.208        1.13592        1.13592        1.13253        2.08632      -0.000421813   2.92833e-06    1
  11780.483        1.12767        1.12767        1.12594        2.07508      -0.000413685   1.22774e-07    1
  11800.819        1.11945        1.11945        1.11934        2.06383      -0.000417356   3.70689e-07    1
  11821.325        1.11132        1.11132        1.11268        2.05252      -0.000370135   1.04854e-06    1
  11841.933        1.10358        1.10358        1.10598        2.04118      -0.000336765   2.75946e-06    1
  11862.533        1.09702        1.09702        1.09929        2.02988      -0.0003035   7.29719e-06    1
  11883.154        1.09357        1.09357        1.09259        2.01858       8.73482e-05   3.28947e-05    1
  11901.195        1.1028        1.1028        1.08673        2.00873       0.00100115   0.000150885    1
  11903.153        1.10636        1.10636        1.0861        2.00766       0.00211808   0.000548363    1
  11905.135        1.11214        1.11214        1.08545        2.00658       0.00341513   0.000316825    1
  11907.075        1.119        1.119        1.08482        2.00552       0.00409775   0.000752193    1
  11909.118        1.12922        1.12922        1.08416        2.00441       0.00591631   0.00105725    1
  11911.070        1.14315        1.14315        1.08352        2.00334       0.00852064   0.0017717    1
  11913.095        1.16471        1.16471        1.08287        2.00224       0.0146652   0.00464812    1
  11915.051        1.20351        1.20351        1.08223        2.00117       0.0283745   0.012741    1
  11917.048        1.29388        1.29388        1.08158        2.00008       0.0682698   0.0206764    1
  11919.092        1.47072        1.47072        1.08092        1.99897       0.0992545   0.00522435    1
  11921.077        1.66372        1.56933        1.08027        1.99789       0.0721754  -0.0255256    1
  11923.048        1.75528        1.65984        1.07963        1.99682       0.0270229  -0.0172491    1
  11925.027        1.77934        1.73224        1.07899        1.99574       0.00296189  -0.00594115    1
  11927.021        1.78008        1.78884        1.07834        1.99466       0.00378204   0.00493003    1
  11929.035        1.80065        1.83183        1.07769        1.99356       0.0164894   0.00442679    1
  11931.029        1.83867        1.86277        1.07704        1.99247       0.0163147  -0.00372965    1
  11933.017        1.86206        1.88451        1.07639        1.99139       0.00728714  -0.00450251    1
  11935.011        1.86742        1.8996        1.07575        1.99031       9.95337e-07  -0.00123272    1
  11937.003        1.86783        1.91038        1.0751        1.98923       0.00280832   0.0030186    1
  11938.983        1.88007        1.91914        1.07446        1.98815       0.00746554   0.00091467    1
  11940.987        1.8961        1.92712        1.07381        1.98706       0.0129437   0.00762421    1
  11943.022        1.94314        1.93441        1.07315        1.98596       0.0311712   0.00488118    1
  11945.046        2.01038        1.94086        1.07249        1.98486       0.0265799  -0.0108739    1
  11947.036        2.03326        1.94645        1.07184        1.98378      -0.00456214  -0.0130247    1
  11949.099        2.00181        1.95152        1.07117        1.98266      -0.0196002  -0.00227554    1
  11951.083        1.9625        1.95572        1.07053        1.98158      -0.0162617   0.00524439    1
  11953.069        1.94382        1.9593        1.06988        1.98051      -0.00362641   0.00354441    1
  11955.113        1.93918        1.96236        1.06922        1.9794      -0.00432092  -0.00202093    1
  11957.096        1.92665        1.96477        1.06857        1.97832      -0.00637229   0.00136258    1
  11959.093        1.91939        1.96667        1.06792        1.97724       0.000335978   0.00408732    1
  11961.108        1.92866        1.96808        1.06727        1.97615       0.00767048   0.00291353    1
  11963.105        1.94955        1.96901        1.06662        1.97507       0.0128501   0.00178133    1
  11965.114        1.97779        1.96952        1.06597        1.97398       0.0146274   0.000168693    1
  11967.111        2.00654        1.96964        1.06532        1.9729       0.0123344  -0.00327912    1
  11969.176        2.02241        1.96938        1.06465        1.97178       0.00189632  -0.00499177    1
  11971.220        2.01677        1.96879        1.06399        1.97067      -0.00647018  -0.00281758    1
  11973.244        1.99985        1.9679        1.06333        1.96958      -0.00809254   0.0006862    1
  11975.259        1.98576        1.96676        1.06267        1.96849      -0.00626896   0.000640671    1
  11977.258        1.97437        1.96542        1.06202        1.96741      -0.00478098   0.000547858    1
  11979.321        1.96493        1.96384        1.06135        1.96629      -0.00428618   0.000847075    1
  11981.401        1.95901        1.96208        1.06068        1.96517      -0.00201607   0.000223443    1
  11983.454        1.95413        1.96023        1.06001        1.96406      -0.0028921  -0.000586215    1
  11985.530        1.9467        1.95828        1.05934        1.96293      -0.00504948  -0.00119712    1
  11987.550        1.93444        1.95634        1.05868        1.96184      -0.00666801  -0.000399827    1
  11989.575        1.9205        1.95439        1.05802        1.96075      -0.00575247   0.0012099    1
  11991.589        1.91154        1.95249        1.05737        1.95966      -0.00279406   0.00186839    1
  11993.599        1.91011        1.95063        1.05672        1.95858       0.000514026   0.000843729    1
  11995.626        1.91211        1.94883        1.05606        1.95748       0.00154795   0.000505772    1
  11997.623        1.91611        1.9471        1.05541        1.95641       0.00243241   0.000676442    1
  11999.649        1.92294        1.9454        1.05475        1.95531       0.00447383   0.00104044    1
  12001.663        1.93395        1.94376        1.0541        1.95423       0.00647105   0.00088047    1
  12003.687        1.94861        1.94217        1.05344        1.95314       0.00714286  -0.000542057    1
  12005.736        1.96121        1.94061        1.05277        1.95203       0.00441369  -0.00176349    1
  12007.778        1.9663        1.9391        1.05211        1.95093       0.00127481  -0.00112065    1
  12009.797        1.96678        1.93765        1.05145        1.94984      -0.00102844  -0.00100352    1
  12011.880        1.96286        1.93621        1.05078        1.94872      -0.00241013  -0.00055436    1
  12013.900        1.95685        1.93485        1.05012        1.94763      -0.00348691  -0.000188878    1
  12015.922        1.95006        1.93354        1.04946        1.94654      -0.00334809  -0.000155205    1
  12017.929        1.94268        1.93227        1.04881        1.94546      -0.00283844   0.000672448    1
  12019.956        1.93799        1.93103        1.04815        1.94437      -0.00194267   0.000412243    1
  12023.950        1.93371        1.9287        1.04686        1.94223      -6.17131e-05   0.000361335    1
  12027.965        1.93526        1.92648        1.04555        1.94007       0.000323426  -8.86766e-05    1
  12031.956        1.9354        1.92441        1.04426        1.93792      -0.000880244  -0.000461287    1
  12035.975        1.92815        1.92242        1.04295        1.93576      -0.00236729  -0.00036565    1
  12039.985        1.91497        1.92055        1.04165        1.93361      -0.00370202  -6.29653e-05    1
  12043.990        1.90081        1.91876        1.04035        1.93146      -0.00313053   0.00034359    1
  12047.998        1.89219        1.91704        1.03905        1.92931      -0.00104927   0.000543209    1
  12051.974        1.89226        1.91541        1.03775        1.92718       0.000953138   0.000483315    1
  12056.020        1.9001        1.91379        1.03644        1.92501       0.00230166   3.15315e-05    1
  12060.057        1.90843        1.91222        1.03513        1.92285       0.00189123  -0.00014723    1
  12064.134        1.91437        1.91066        1.0338        1.92067       0.00109081  -0.000139906    1
  12068.149        1.91796        1.90914        1.0325        1.91852       0.000544493  -0.000162911    1
  12072.231        1.91892        1.9076        1.03117        1.91634       4.80598e-05  -0.00010172    1
  12076.326        1.91817        1.90605        1.02984        1.91415      -0.000577846  -0.000212357    1
  12080.403        1.91392        1.90448        1.02852        1.91197      -0.00123777   1.30027e-05    1
  12084.494        1.90987        1.90288        1.02719        1.90979      -0.000415366   0.000326545    1
  12088.533        1.91125        1.90126        1.02588        1.90763       0.000868755   0.000158636    1
  12092.572        1.9152        1.89962        1.02457        1.90548       0.000910811  -0.000202452    1
  12096.654        1.91583        1.89793        1.02324        1.9033      -0.00118192  -0.000602573    1
  12100.776        1.90631        1.89619        1.0219        1.90111      -0.00334411  -0.000439723    1
  12104.860        1.88944        1.89444        1.02058        1.89893      -0.00428686   0.000172609    1
  12108.913        1.87554        1.89268        1.01926        1.89677      -0.00214486   0.000556479    1
  12113.014        1.87073        1.89087        1.01793        1.89459      -0.000607229   0.000144163    1
  12117.192        1.8683        1.889        1.01657        1.89237      -0.000509691   5.0616e-05    1
  12121.373        1.86676        1.88711        1.01521        1.89015      -0.00024166   9.15086e-05    1
  12125.482        1.86682        1.88523        1.01388        1.88796       0.000159375   4.7838e-05    1
  12129.552        1.86766        1.88335        1.01255        1.8858       0.000551519   0.00019952    1
  12133.624        1.87184        1.88144        1.01123        1.88364       0.00143792   0.000197591    1
  12137.643        1.8792        1.87954        1.00993        1.88151       0.0020095   7.60751e-05    1
  12141.741        1.88797        1.87759        1.0086        1.87934       0.00253173   0.000209352    1
  12145.792        1.90008        1.87564        1.00728        1.87719       0.0025542  -0.000306669    1
  12149.875        1.90723        1.87367        1.00595        1.87503       0.0010153  -0.000488584    1
  12153.962        1.90627        1.87167        1.00463        1.87286      -0.00140989  -0.000471396    1
  12158.132        1.89715        1.86962        1.00327        1.87066      -0.00274309  -0.000241731    1
  12162.237        1.88405        1.86759        1.00194        1.86848      -0.00345454  -0.000112847    1
  12166.396        1.86887        1.86553        1.00059        1.86629      -0.00405908  -0.000222637    1
  12170.549        1.84981        1.86345       0.999238        1.86409      -0.00449723   0.000259935    1
  12174.704        1.83523        1.86137       0.997888        1.8619      -0.0020184   0.000689895    1
  12178.878        1.83254        1.85926       0.996532        1.85969       0.000261176   0.000393255    1
  12183.008        1.83662        1.85718       0.99519        1.85752       0.00183905   0.000276848    1
  12187.187        1.84558        1.85506       0.993833        1.85531       0.00179015  -0.000243387    1
  12191.395        1.85032        1.85292       0.992466        1.85309       4.45461e-05  -0.000574423    1
  12195.523        1.84502        1.85082       0.991125        1.85092      -0.002353  -0.000313895    1
  12199.633        1.83442        1.84873       0.98979        1.84876      -0.00179338   0.000462715    1
  12203.805        1.83161        1.8466       0.988435        1.84656       0.00024597   0.000425707    1
  12207.985        1.83622        1.84447       0.987077        1.84436       0.00185819   0.000244305    1
  12212.167        1.84511        1.84233       0.985719        1.84216       0.00194341  -7.14208e-05    1
  12216.345        1.85275        1.8402       0.984362        1.83997       0.00169096  -6.72786e-05    1
  12220.454        1.85911        1.83811       0.983027        1.83781       0.00163919  -3.23094e-05    1
  12224.579        1.86495        1.83601       0.981687        1.83565       0.000643142  -0.000392523    1
  12228.723        1.86415        1.83389       0.980341        1.83347      -0.000992734  -0.000405198    1
  12232.859        1.85639        1.83178       0.978997        1.8313      -0.00260789  -0.000441667    1
  12237.065        1.84074        1.82964       0.977631        1.8291      -0.00427687  -5.82994e-05    1
  12242.973        1.8173        1.82662       0.975712        1.82601      -0.00346809   0.000219846    1
  12249.030        1.80244        1.82353       0.973744        1.82284      -0.00120475   0.000410946    1
  12255.074        1.80253        1.82045       0.971781        1.81968       0.000605011   0.000153817    1
  12261.263        1.8085        1.81729       0.969771        1.81644       0.00108649  -4.93899e-05    1
  12267.335        1.81254        1.81419       0.967798        1.81327       0.000189539  -0.000130285    1
  12273.474        1.81172        1.81105       0.965804        1.81007      -0.000940548  -0.000269271    1
  12279.551        1.80096        1.80795       0.96383        1.8069      -0.00184618   7.68886e-05    1
  12285.656        1.79301        1.80483       0.961847        1.80372      -0.000303788   0.000376433    1
  12291.795        1.79922        1.80169       0.959853        1.80053       0.00172749   5.75246e-05    1
  12298.018        1.8077        1.79851       0.957832        1.79729       0.000751244  -0.000195429    1
  12304.008        1.80866        1.79545       0.955886        1.79418      -0.00033811  -6.92848e-05    1
  12310.203        1.80705        1.79228       0.953874        1.79096       0.000181977   0.000104127    1
  12316.310        1.80939        1.78915       0.95189        1.78779      -4.99831e-05  -0.000187022    1
  12322.430        1.80473        1.78602       0.949902        1.78462      -0.00142338  -0.000264056    1
  12328.562        1.79008        1.78287       0.94791        1.78144      -0.0032669  -0.000199413    1
  12334.770        1.76762        1.77969       0.945893        1.77822      -0.00339993   0.000129802    1
  12340.978        1.75018        1.77651       0.943877        1.77501      -0.00173383   0.000379689    1
  12347.163        1.74718        1.77334       0.941868        1.77182       0.000338323   0.000222146    1
  12353.393        1.75281        1.77014       0.939844        1.7686       0.00140032   9.06016e-05    1
  12359.518        1.76178        1.76699       0.937855        1.76544       0.00113101  -0.000127019    1
  12365.734        1.76604        1.7638       0.935835        1.76223       0.000213375  -8.64012e-05    1
  12371.866        1.76697        1.76065       0.933844        1.75907       0.000276847   9.80059e-06    1
  12378.066        1.76829        1.75746       0.93183        1.75588       1.56838e-05  -8.58277e-05    1
  12384.241        1.76633        1.75428       0.929824        1.7527      -0.000768117  -9.63056e-05    1
  12390.512        1.7606        1.75105       0.927787        1.74948      -0.000581017   0.000110278    1
  12396.694        1.75922        1.74787       0.925779        1.7463      -5.17649e-05  -4.2004e-06    1
  12402.850        1.75769        1.74469       0.923779        1.74314      -0.000791471  -0.000193164    1
  12409.082        1.74867        1.74148       0.921755        1.73995      -0.0017652  -2.25328e-05    1
  12415.289        1.73881        1.73828       0.919739        1.73676      -0.00129727   5.94723e-05    1
  12421.675        1.73108        1.73499       0.917664        1.73349      -0.00123662   1.66845e-05    1
  12427.889        1.72422        1.73179       0.915646        1.73032      -0.000862401   6.41575e-05    1
  12434.223        1.71977        1.72852       0.913588        1.72708      -0.000813059  -3.52715e-05    1
  12440.449        1.71402        1.72531       0.911566        1.7239      -0.0009237  -4.47701e-06    1
  12446.750        1.70803        1.72207       0.909519        1.72068      -0.000802541   9.65573e-05    1
  12453.007        1.70589        1.71884       0.907487        1.71749       0.000288952   0.000139667    1
  12459.411        1.7093        1.71554       0.905407        1.71422       0.000389915  -6.56285e-05    1
  12465.662        1.71002        1.71232       0.903376        1.71104      -0.000197334  -3.74376e-05    1
  12472.069        1.70924        1.70902       0.901295        1.70778       0.000184127   7.51186e-05    1
  12478.357        1.71147        1.70578       0.899252        1.70458       0.000356105  -2.44555e-05    1
  12484.656        1.71273        1.70254       0.897206        1.70138       5.56611e-05  -2.6308e-05    1
  12490.956        1.71295        1.6993       0.89516        1.69819      -3.311e-06  -2.98843e-05    1
  12497.332        1.71197        1.69602       0.893088        1.69495      -0.000340233  -7.58484e-05    1
  12503.776        1.70782        1.69271       0.890995        1.69169      -0.0011306  -0.000119912    1
  12510.145        1.69889        1.68944       0.888927        1.68846      -0.0012633   1.22724e-05    1
  12516.509        1.69046        1.68618       0.886859        1.68524      -0.00186935  -0.000116814    1
  12522.829        1.67741        1.68294       0.884806        1.68205      -0.00171268   0.000108339    1
  12529.138        1.66869        1.6797       0.882757        1.67886      -0.000977078   0.000157973    1
  12535.465        1.66625        1.67647       0.880702        1.67567      -8.13194e-05   5.71972e-05    1
  12541.963        1.6661        1.67314       0.878591        1.67239      -5.84852e-06  -2.29999e-05    1
  12548.322        1.66501        1.66989       0.876526        1.66919      -0.000381171  -6.96629e-05    1
  12554.761        1.66103        1.66661       0.874434        1.66595      -0.000958191  -0.000124966    1
  12561.146        1.65197        1.66335       0.87236        1.66273      -0.00159725   2.64931e-06    1
  12567.599        1.64292        1.66007       0.870264        1.65949      -0.000959501   0.000173485    1
  12573.989        1.64119        1.65682       0.868188        1.65628       0.000259798   0.000126232    1
  12580.389        1.64458        1.65356       0.866109        1.65307       0.000773727   9.02293e-05    1
  12586.862        1.65178        1.65028       0.864007        1.64983       0.00128555   1.5537e-05    1
  12593.330        1.65964        1.647       0.861906        1.64659       0.00101848  -8.51778e-05    1
  12599.761        1.66393        1.64374       0.859817        1.64337       0.00038003  -8.9942e-05    1
  12606.187        1.6645        1.64049       0.857729        1.64015      -0.000378928  -0.000125331    1
  12612.684        1.65985        1.63721       0.855619        1.63691      -0.00100398  -9.86464e-05    1
  12619.127        1.65109        1.63396       0.853526        1.63369      -0.00151618  -4.54026e-05    1
  12625.645        1.64034        1.63067       0.851409        1.63044      -0.00207286  -0.000134502    1
  12632.098        1.62403        1.62742       0.849313        1.62722      -0.00240049   0.000100789    1
  12638.558        1.61188        1.62417       0.847214        1.62401      -0.0014389   0.000134368    1
  12645.080        1.60536        1.6209       0.845096        1.62076      -0.000570569   0.000113915    1
  12651.559        1.60366        1.61764       0.842991        1.61754       2.73415e-05   7.79753e-05    1
  12658.048        1.60526        1.61439       0.840883        1.61432       0.000232167  -2.60153e-05    1
  12664.549        1.60578        1.61113       0.838771        1.61109      -0.000138875  -9.23001e-05    1
  12671.113        1.60233        1.60785       0.836639        1.60784      -0.000705046  -4.01954e-06    1
  12677.677        1.5987        1.60457       0.834507        1.60458      -0.000402066   2.8126e-05    1
  12684.264        1.59629        1.60128       0.832367        1.60132      -0.000318888   9.57498e-06    1
  12690.809        1.59431        1.59801       0.830241        1.59809      -0.000307331   7.84904e-06    1
  12697.344        1.59266        1.59475       0.828119        1.59486      -0.000353472  -2.10274e-05    1
  12703.845        1.59014        1.59152       0.826007        1.59165      -0.000199749   4.56548e-05    1
  12710.499        1.58954        1.58821       0.823846        1.58836      -5.64299e-05   1.02373e-05    1
  12717.110        1.5894        1.58492       0.821698        1.58511      -2.26963e-05   8.18146e-06    1
  12723.893        1.58962        1.58155       0.819495        1.58177       0.000153635   2.82665e-05    1
  12730.470        1.59109        1.57829       0.817358        1.57853       3.19572e-05  -7.9193e-05    1
  12737.221        1.58904        1.57494       0.815165        1.57521      -0.00053459  -7.48784e-05    1
  12743.799        1.58373        1.57169       0.813029        1.57198      -0.000956284  -4.31065e-06    1
  12750.464        1.57816        1.56839       0.810864        1.56871      -0.000827672  -3.32859e-05    1
  12757.039        1.57121        1.56514       0.808728        1.56549      -0.00118699  -1.57883e-05    1
  12763.634        1.56356        1.56188       0.806586        1.56226      -0.00115972   3.88876e-06    1
  12770.383        1.55591        1.55856       0.804393        1.55895      -0.00116789   2.86829e-06    1
  12777.025        1.54851        1.55528       0.802236        1.55571      -0.00100604   2.35115e-05    1
  12783.819        1.54201        1.55194       0.800029        1.55239      -0.00103951  -3.44922e-06    1
  12790.445        1.53552        1.54867       0.797877        1.54915      -0.000620784   9.47444e-05    1
  12797.150        1.53321        1.54538       0.795699        1.54588      -0.000257057   1.53477e-05    1
  12803.792        1.5316        1.54211       0.793541        1.54265      -0.000131704   2.59536e-05    1
  12810.588        1.53112        1.53878       0.791334        1.53934       3.06056e-05   8.04453e-06    1
  12817.230        1.53101        1.53552       0.789176        1.53611      -0.000167178  -2.3504e-05    1
  12824.035        1.52983        1.53219       0.786966        1.5328      -9.7382e-05   1.23448e-06    1
  12830.772        1.52871        1.52889       0.784777        1.52953      -0.000347045  -2.65278e-05    1
  12837.564        1.52637        1.52557       0.782571        1.52624      -0.000321878  -5.22351e-06    1
  12844.286        1.52381        1.52229       0.780388        1.52298      -0.000364863   3.25699e-05    1
  12851.004        1.52272        1.51901       0.778205        1.51972       6.15027e-05   5.76468e-05    1
  12857.733        1.52425        1.51573       0.77602        1.51647       0.000227171  -3.42709e-05    1
  12864.442        1.52424        1.51246       0.77384        1.51323      -7.15466e-05  -8.78057e-06    1
  12871.227        1.52382        1.50916       0.771636        1.50995      -0.000326854  -8.1321e-05    1
  12877.985        1.51972        1.50587       0.769441        1.50669      -0.000844321  -7.57419e-05    1
  12884.803        1.51206        1.50256       0.767226        1.5034      -0.00154131  -7.84777e-05    1
  12891.479        1.50104        1.49933       0.765058        1.50019      -0.00149259   6.05314e-05    1
  12898.355        1.4925        1.496       0.762824        1.49688      -0.000871026   8.89947e-05    1
  12905.036        1.48826        1.49276       0.760654        1.49367      -0.000444512   4.73517e-05    1
  12911.940        1.48608        1.48943       0.758412        1.49036      -0.000362737  -3.95047e-05    1
  12918.751        1.48208        1.48614       0.756199        1.48709      -0.000755688  -3.67013e-05    1
  12925.577        1.47636        1.48285       0.753982        1.48382      -0.000860208  -1.70653e-06    1
  12932.336        1.47063        1.4796       0.751786        1.48058      -0.000708797   2.40533e-05    1
  12939.136        1.46596        1.47633       0.749577        1.47733      -0.000711744   1.35901e-05    1
  12945.920        1.46194        1.47307       0.747374        1.47408      -0.000429552   4.84452e-05    1
  12952.783        1.46012        1.46977       0.745144        1.47081      -0.000214138   1.56005e-05    1
  12959.749        1.45903        1.46644       0.742882        1.46748      -0.000132966   1.30962e-05    1
  12966.596        1.45857        1.46316       0.740658        1.46422       9.4225e-05   2.89497e-05    1
  12973.460        1.45948        1.45988       0.738428        1.46095       0.000210843   2.72954e-05    1
  12980.301        1.46166        1.45662       0.736206        1.45769       0.000303756  -1.87115e-05    1
  12987.206        1.46298        1.45333       0.733963        1.45441       6.86847e-05  -4.90471e-05    1
  12994.114        1.46197        1.45004       0.731719        1.45113      -0.000605062  -8.69684e-05    1
  13004.178        1.45444        1.44526       0.72845        1.44636      -0.000730892   2.01847e-06    1
  13012.199        1.44861        1.44146       0.725844        1.44256      -0.000557865   6.79515e-06    1
  13020.337        1.44315        1.43761       0.723201        1.43871      -0.000927157  -2.69359e-05    1
  13028.398        1.43599        1.43381       0.720582        1.4349      -0.000746897   3.1843e-07    1
  13036.490        1.42883        1.42999       0.717954        1.43108      -0.00105417  -3.78314e-06    1
  13044.786        1.42123        1.42609       0.715259        1.42716      -0.000652012   7.99683e-05    1
  13052.901        1.41917        1.42228       0.712623        1.42334       0.000150811   6.32225e-05    1
  13061.054        1.42127        1.41845       0.709975        1.41951       9.45067e-05  -5.1352e-05    1
  13069.190        1.41994        1.41465       0.707332        1.41568      -0.000589973  -9.68684e-05    1
  13077.401        1.41207        1.41081       0.704665        1.41183      -0.0013102  -6.73566e-05    1
  13085.530        1.39985        1.40703       0.702024        1.40801      -0.00120242   8.53005e-05    1
  13093.728        1.39327        1.40321       0.699361        1.40417      -0.00049021   6.31212e-05    1
  13101.974        1.39094        1.39938       0.696683        1.40032      -0.000175612   4.1551e-06    1
  13110.150        1.3889        1.39559       0.694027        1.39649      -0.000425873  -2.54181e-05    1
  13118.359        1.38515        1.39179       0.69136        1.39266      -0.000407885   2.34652e-05    1
  13126.576        1.383        1.388       0.688691        1.38883      -1.32358e-05   4.65688e-05    1
  13134.799        1.38397        1.3842       0.68602        1.385       0.000222555   3.23548e-05    1
  13143.103        1.38716        1.38038       0.683323        1.38114       0.000337395  -3.15689e-05    1
  13151.412        1.38815        1.37656       0.680624        1.37728      -0.000104829  -7.53274e-05    1
  13159.597        1.38406        1.3728       0.677965        1.37348      -0.000781241  -3.71891e-05    1
  13167.844        1.37744        1.36902       0.675286        1.36965      -0.000948371  -2.29444e-05    1
  13176.107        1.36924        1.36524       0.672602        1.36583      -0.000797534   3.60094e-05    1
  13184.343        1.36352        1.36147       0.669927        1.36202      -0.00073604   4.90325e-06    1
  13192.675        1.35807        1.35767       0.66722        1.35817      -0.000537683   2.14093e-05    1
  13201.112        1.35409        1.35383       0.66448        1.35428      -0.000435154  -5.07595e-06    1
  13209.475        1.34978        1.35002       0.661763        1.35042      -0.000666827  -2.99395e-05    1
  13217.897        1.3433        1.34619       0.659027        1.34654      -0.000801887   1.68906e-05    1
  13226.296        1.33801        1.34237       0.656299        1.34268      -0.00039242   2.73772e-05    1
  13234.665        1.33467        1.33858       0.653581        1.33884      -0.000417469   2.31971e-06    1
  13243.271        1.3314        1.33468       0.650785        1.33489      -0.000417854  -1.72112e-05    1
  13251.640        1.32698        1.33089       0.648067        1.33106      -0.00059073  -1.46311e-05    1
  13260.172        1.32143        1.32703       0.645295        1.32715      -0.000644981   2.18014e-05    1
  13268.541        1.31753        1.32326       0.642577        1.32333      -0.000287749   3.6497e-05    1
  13276.911        1.31618        1.31948       0.639858        1.31951      -9.41585e-05  -1.58721e-06    1
  13285.313        1.31472        1.31569       0.637129        1.31567      -0.00027759  -1.825e-05    1
  13293.999        1.31183        1.31178       0.634307        1.31172      -0.000399835  -7.36536e-06    1
  13302.417        1.30852        1.30799       0.631573        1.30789      -0.000271245   2.87455e-05    1
  13311.025        1.30726        1.30412       0.628777        1.30398      -0.00011391   1.92956e-06    1
  13319.573        1.30615        1.30028       0.626        1.3001      -0.000238596  -2.13503e-05    1
  13328.187        1.30345        1.29641       0.623202        1.2962      -0.000392461  -2.27708e-05    1
  13336.791        1.29908        1.29255       0.620407        1.2923      -0.000677988  -3.88653e-05    1
  13345.262        1.29194        1.28875       0.617656        1.28847      -0.000811261   1.57917e-05    1
  13353.928        1.28579        1.28487       0.614841        1.28456      -0.000562233   3.04343e-05    1
  13362.446        1.282        1.28106       0.612074        1.28072      -0.000390651   9.93425e-07    1
  13371.109        1.27822        1.27718       0.60926        1.27682      -0.000575175  -3.45147e-05    1
  13379.652        1.27196        1.27336       0.606485        1.27297      -0.000692021   1.91069e-05    1
  13388.231        1.2671        1.26952       0.603698        1.26912      -0.000605983  -8.43457e-07    1
  13396.789        1.26218        1.2657       0.600918        1.26528      -0.000499493   1.18128e-05    1
  13405.375        1.25812        1.26187       0.598129        1.26143      -0.000402311   1.1678e-05    1
  13413.963        1.25492        1.25804       0.59534        1.25759      -0.00040063  -2.2955e-06    1
  13422.641        1.25151        1.25417       0.592521        1.25371      -0.000403333   7.34798e-07    1
  13431.334        1.24814        1.25031       0.589697        1.24983      -0.000316785  -3.59391e-06    1
  13440.000        1.24452        1.24646       0.586882        1.24596      -0.000508901  -7.46433e-06    1
  13448.774        1.24029        1.24256       0.584032        1.24205      -0.000424359   1.60224e-05    1
  13457.414        1.23734        1.23874       0.581225        1.23821      -0.000268367   1.40557e-05    1
  13466.163        1.23542        1.23487       0.578383        1.23432      -0.000293457  -8.57843e-06    1
  13474.808        1.23287        1.23105       0.575575        1.23049      -0.000214043   1.6789e-06    1
  13483.491        1.23044        1.22723       0.572755        1.22664      -0.000372733  -1.99864e-05    1
  13492.184        1.22649        1.2234       0.569931        1.22279      -0.000558855  -7.90344e-06    1
  13505.973        1.21926        1.21736       0.565452        1.2167      -0.000419589   1.07669e-05    1
  13518.092        1.21489        1.21206       0.561515        1.21136      -0.000386112  -3.87415e-06    1
  13530.230        1.20996        1.20677       0.557572        1.20602      -0.000462946  -6.29141e-06    1
  13542.320        1.20411        1.20152       0.553645        1.2007      -0.000485628  -6.48942e-06    1
  13554.585        1.19721        1.19621       0.549661        1.19532      -0.000546045   4.94859e-06    1
  13566.797        1.19108        1.19095       0.545694        1.18998      -0.00056188  -2.56182e-06    1
  13579.144        1.18449        1.18565       0.541684        1.18458      -0.000574146  -7.51072e-06    1
  13591.287        1.17689        1.18046       0.537739        1.17929      -0.000545382   4.59424e-06    1
  13603.721        1.16981        1.17518       0.533701        1.17387      -0.00051877   1.3727e-05    1
  13615.952        1.16492        1.17       0.529727        1.16856      -0.000383896   8.80311e-06    1
  13628.379        1.16128        1.16477       0.525691        1.16317      -0.000160851   1.52737e-05    1
  13640.701        1.16002        1.15961       0.521688        1.15783      -0.000118551  -4.29685e-06    1
  13653.090        1.15809        1.15445       0.517664        1.15248      -0.000228801  -2.19652e-05    1
  13665.396        1.15284        1.14935       0.513666        1.14717      -0.000628184  -1.4252e-05    1
  13677.901        1.14533        1.14421       0.509604        1.14178      -0.00056304   8.16057e-06    1
  13690.325        1.13914        1.13913       0.505569        1.13644      -0.000383748   1.11089e-05    1
  13696.550        1.1369        1.13659       0.503547        1.13377      -0.000359663   3.86891e-06    1